Folder: analysis-dataset/docs/data/txt

Note: README.md
To build the toc:

`node buildToc.mjs`

It is possible to get a 'filelist' using a code like:

```js
const { fileListFromWebservice } = require("filelist-utils");
const filelist = fileListFromWebservice(
  "https://zakodium-oss.github.io/analysis-dataset/full.json"
);
```

File: cary500uvvis.csv
Baseline 100%T,,Baseline 0%T,,blank,,blank2,,p1-fresh-glass,,p5-fresh-glass,,ir hot mirror face1,,ir hot mirror face2,,
Wavelength (nm),%T,Wavelength (nm),%T,Wavelength (nm),%T,Wavelength (nm),%T,Wavelength (nm),%T,Wavelength (nm),%T,Wavelength (nm),%T,Wavelength (nm),%T,
3000,104.126,3000,-0.155711,3000,99.984,3000,99.8904,3000,2.32749,3000,2.46369,3000,51.1867,3000,51.0814,
2970,103.611,2970,-0.12489,2970,99.984,2970,99.8994,2970,1.9488,2970,2.71181,2970,49.9826,2970,49.8749,
2940,102.93,2940,-0.0941897,2940,99.9797,2940,99.8943,2940,2.34893,2940,1.9016,2940,48.8818,2940,48.7873,
2910,102.27,2910,-0.0864061,2910,99.9856,2910,99.8931,2910,2.24927,2910,1.44887,2910,48.1433,2910,48.065,
2880,102.083,2880,-0.0642218,2880,99.9787,2880,99.8795,2880,2.50061,2880,2.13073,2880,47.7944,2880,47.7284,
2850,102.376,2850,-0.0483277,2850,99.9756,2850,99.8751,2850,1.89492,2850,2.53069,2850,47.9983,2850,47.954,
2820,103.079,2820,-0.0498005,2820,99.9881,2820,99.9467,2820,2.09192,2820,1.94599,2820,48.9051,2820,48.8693,
2790,104.284,2790,-0.0499034,2790,100.003,2790,99.9682,2790,3.07554,2790,1.9392,2790,50.9656,2790,50.9254,
2760,105.575,2760,-0.0473283,2760,100,2760,99.959,2760,3.44223,2760,3.01235,2760,55.8896,2760,55.8745,
2730,105.788,2730,-0.0453979,2730,100.021,2730,100.009,2730,3.66439,2730,4.8825,2730,63.8385,2730,63.8199,
2700,105.875,2700,-0.0511332,2700,100.01,2700,99.9603,2700,5.47194,2700,4.65357,2700,73.2453,2700,73.256,
2670,106.033,2670,-0.0494677,2670,100.08,2670,99.9957,2670,7.63833,2670,4.9293,2670,76.1731,2670,76.173,
2640,105.99,2640,-0.0456014,2640,100,2640,99.9755,2640,6.48306,2640,7.01398,2640,77.5826,2640,77.6104,
2610,106.166,2610,-0.0508006,2610,99.9782,2610,99.9674,2610,5.57049,2610,6.47128,2610,79.3149,2610,79.2951,
2580,106.234,2580,-0.0461791,2580,99.9848,2580,99.953,2580,7.7952,2580,5.17868,2580,81.4584,2580,81.4152,
2550,106.28,2550,-0.0497461,2550,99.9978,2550,99.9751,2550,8.36664,2550,7.08014,2550,84.156,2550,84.1764,
2520,106.674,2520,-0.0486408,2520,99.9935,2520,99.9704,2520,6.02542,2520,7.60395,2520,86.7164,2520,86.716,
2490,106.79,2490,-0.0449292,2490,99.9918,2490,99.9706,2490,7.6576,2490,5.58,2490,89.0081,2490,89.0172,
2460,107.111,2460,-0.0498102,2460,99.9935,2460,99.9656,2460,9.36828,2460,7.30754,2460,90.563,2460,90.5549,
2430,107.561,2430,-0.0479036,2430,99.9924,2430,99.9786,2430,6.43003,2430,7.9489,2430,90.9418,2430,90.94,
2400,108.165,2400,-0.0454373,2400,99.9973,2400,99.9656,2400,8.04769,2400,5.82281,2400,89.8329,2400,89.8425,
2370,108.468,2370,-0.0506266,2370,99.9961,2370,99.9592,2370,9.69026,2370,8.07072,2370,87.4206,2370,87.4477,
2340,108.608,2340,-0.0482426,2340,99.9911,2340,99.9608,2340,6.73802,2340,7.64303,2340,84.0975,2340,84.1106,
2310,108.385,2310,-0.0485828,2310,100.014,2310,99.9745,2310,9.01018,2310,6.33979,2310,80.6241,2310,80.6449,
2280,107.074,2280,-0.0537774,2280,100.01,2280,99.9718,2280,9.05018,2280,9.11577,2280,77.569,2280,77.6046,
2250,106.497,2250,-0.0459074,2250,99.9945,2250,99.9618,2250,7.95926,2250,6.96729,2250,75.3553,2250,75.3823,
2220,107.425,2220,-0.0496143,2220,99.9894,2220,99.9622,2220,11.1779,2220,8.62444,2220,74.4857,2220,74.5014,
2190,107.712,2190,-0.0515456,2190,99.997,2190,99.9717,2190,8.47755,2190,9.30648,2190,75.3365,2190,75.3388,
2160,106.548,2160,-0.0488788,2160,99.9766,2160,99.9517,2160,10.7474,2160,8.50883,2160,77.7173,2160,77.7154,
2130,106.436,2130,-0.0443298,2130,99.9899,2130,99.9625,2130,10.4569,2130,10.5598,2130,81.289,2130,81.2825,
2100,106.5,2100,-0.0503226,2100,99.9957,2100,99.9584,2100,10.9417,2100,9.00219,2100,85.4171,2100,85.4121,
2070,106.459,2070,-0.0502708,2070,99.9916,2070,99.968,2070,12.7199,2070,11.6256,2070,88.8917,2070,88.891,
2040,106.435,2040,-0.0486443,2040,99.9862,2040,99.9628,2040,11.2826,2040,9.47255,2040,90.1144,2040,90.1192,
2010,106.388,2010,-0.0480059,2010,99.9941,2010,99.9715,2010,13.5154,2010,11.9282,2010,88.2282,2010,88.2288,
1980,106.227,1980,-0.0519827,1980,99.9935,1980,99.9718,1980,11.6849,1980,9.89346,1980,83.8336,1980,83.8401,
1950,106.153,1950,-0.0480319,1950,99.9953,1950,99.9702,1950,13.965,1950,12.2666,1950,78.8097,1950,78.8306,
1920,105.845,1920,-0.0493901,1920,100.002,1920,99.9856,1920,12.4194,1920,10.669,1920,75.1104,1920,75.1584,
1890,105.617,1890,-0.0444665,1890,99.992,1890,99.9589,1890,14.2029,1890,12.8944,1890,73.8754,1890,73.8663,
1860,105.24,1860,-0.0507358,1860,100.008,1860,99.9761,1860,14.0627,1860,12.401,1860,76.0328,1860,75.9821,
1830,104.762,1830,-0.0508497,1830,100.005,1830,99.9886,1830,14.4241,1830,13.155,1830,81.299,1830,81.2331,
1800,104.397,1800,-0.0456385,1800,99.9852,1800,99.9682,1800,17.039,1800,14.8193,1800,88.0082,1800,87.9822,
1770,103.821,1770,-0.0493922,1770,100.014,1770,99.9748,1770,15.4822,1770,13.5594,1770,91.4684,1770,91.4672,
1740,103.39,1740,-0.0483636,1740,99.994,1740,99.9661,1740,17.4126,1740,14.9939,1740,87.2573,1740,87.2735,
1710,103.016,1710,-0.0486341,1710,99.999,1710,99.9666,1710,17.6858,1710,15.5737,1710,77.3839,1710,77.4288,
1680,102.829,1680,-0.0486868,1680,99.9917,1680,99.9635,1680,16.3956,1680,14.5113,1680,68.4485,1680,68.4799,
1650,102.717,1650,-0.0502434,1650,99.9935,1650,99.9658,1650,18.3184,1650,15.7932,1650,64.699,1650,64.7104,
1620,102.844,1620,-0.0480861,1620,99.9969,1620,99.9728,1620,21.0066,1620,18.1745,1620,67.8132,1620,67.7967,
1590,103.043,1590,-0.0519337,1590,100.002,1590,99.9734,1590,20.0877,1590,18.6707,1590,77.656,1590,77.6206,
1560,103.454,1560,-0.0511742,1560,100.01,1560,99.9806,1560,20.2754,1560,18.2184,1560,87.3239,1560,87.3018,
1530,103.792,1530,-0.0473105,1530,99.9918,1530,99.9534,1530,21.4956,1530,18.1379,1530,83.2854,1530,83.3147,
1500,104.134,1500,-0.0467271,1500,100,1500,99.9732,1500,23.022,1500,18.802,1500,71.1409,1500,71.1779,
1470,104.299,1470,-0.0453812,1470,99.9985,1470,99.9754,1470,24.8013,1470,20.0999,1470,67.6643,1470,67.6639,
1440,104.433,1440,-0.045791,1440,100,1440,99.9717,1440,26.5693,1440,21.7082,1440,77.1287,1440,77.1026,
1410,104.528,1410,-0.0497094,1410,99.9359,1410,99.8775,1410,28.2083,1410,23.0069,1410,63.3279,1410,63.4807,
1380,103.77,1380,-0.0489172,1380,100,1380,100.003,1380,29.6441,1380,23.4987,1380,25.166,1380,25.2377,
1350,103.244,1350,-0.0462674,1350,99.999,1350,99.9739,1350,30.1336,1350,23.3825,1350,10.662,1350,10.6906,
1320,102.798,1320,-0.050048,1320,99.9934,1320,99.966,1320,29.9214,1320,24.0856,1320,6.46265,1320,6.47391,
1290,101.885,1290,-0.0495616,1290,99.9891,1290,99.9642,1290,29.4334,1290,27.1188,1290,5.85558,1290,5.86054,
1260,101.384,1260,-0.0502469,1260,99.9965,1260,99.9689,1260,30.8883,1260,30.5848,1260,7.07335,1260,7.0823,
1230,100.889,1230,-0.0462284,1230,100.001,1230,99.9798,1230,36.594,1230,29.5201,1230,4.55183,1230,4.56554,
1200,100.529,1200,-0.0471842,1200,99.9961,1200,99.963,1200,35.7697,1200,30.8035,1200,1.56112,1200,1.57176,
1170,100.314,1170,-0.0472739,1170,99.9864,1170,99.9572,1170,36.0837,1170,34.5917,1170,0.744873,1170,0.752765,
1140,100.327,1140,-0.0507297,1140,99.9978,1140,99.9621,1140,42.1066,1140,35.4493,1140,0.587327,1140,0.592549,
1110,100.568,1110,-0.0476197,1110,99.9925,1110,99.9652,1110,42.0274,1110,36.1455,1110,0.866462,1110,0.86639,
1080,100.779,1080,-0.0459917,1080,99.9915,1080,99.9494,1080,41.3872,1080,40.7821,1080,3.31949,1080,3.31135,
1050,100.727,1050,-0.0433382,1050,99.9923,1050,99.9683,1050,48.0174,1050,43.1996,1050,2.43376,1050,2.44847,
1020,100.152,1020,-0.0441889,1020,99.9862,1020,99.9522,1020,51.5046,1020,44.3168,1020,0.841421,1020,0.843403,
990,98.7462,990,-0.0476844,990,99.9935,990,99.9688,990,54.2054,990,47.6538,990,1.00938,990,1.01233,
960,97.8535,960,-0.0509216,960,99.9854,960,99.9746,960,54.9159,960,50.0524,960,2.77589,960,2.78374,
930,96.9563,930,-0.0452639,930,99.9948,930,99.9666,930,54.2965,930,51.164,930,1.16288,930,1.17018,
900,96.2246,900,-0.051041,900,99.9985,900,99.9578,900,60.1906,900,54.8229,900,0.835939,900,0.843308,
870,111.353,870,0.00220052,870,99.7651,870,99.7579,870,60.2774,870,56.3846,870,1.29763,870,1.29966,
840,108.027,840,0.00499965,840,99.7487,840,99.7192,840,64.0449,840,59.5666,840,1.39865,840,1.40836,
810,105.59,810,0.000500197,810,99.7831,810,99.7324,810,66.0812,810,61.9766,810,2.10944,810,2.12436,
780,108.722,780,0.00295506,780,99.8718,780,99.8251,780,67.9212,780,64.4673,780,5.48629,780,5.52609,
750,110.589,750,0.00344855,750,99.8385,750,99.8321,750,69.5967,750,66.5724,750,18.7703,750,18.8838,
720,112.5,720,0.0061902,720,99.9075,720,99.8635,720,70.9253,720,68.1021,720,69.4763,720,69.5285,
690,114.236,690,0.00159802,690,99.8807,690,99.8266,690,71.9146,690,69.3118,690,92.8307,690,92.7947,
660,115.6847,660,0.00213531,660,99.8758,660,99.8789,660,72.3663,660,70.1901,660,92.0586,660,92.077,
630,116.068,630,0.00612884,630,99.8934,630,99.843,630,72.4499,630,70.4836,630,89.9499,630,90.012,
600,115.972,600,0.00202963,600,99.8845,600,99.7811,600,72.4409,600,70.2908,600,87.4533,600,87.5756,
570,115.919,570,-0.00109883,570,99.8443,570,99.7742,570,72.1988,570,69.9098,570,82.1739,570,82.2947,
540,115.136,540,0.000704135,540,99.8027,540,99.763,540,71.8893,540,69.1278,540,87.1504,540,87.1948,
510,115.642,510,0.00336407,510,99.849,510,99.8076,510,72.0364,510,68.9049,510,89.8546,510,89.8546,
480,116.24,480,0.00241025,480,99.8579,480,99.8305,480,71.8093,480,68.3135,480,89.7199,480,89.7214,
450,116.976,450,0.00528409,450,99.8839,450,99.827,450,71.2995,450,67.8601,450,87.8001,450,87.8576,
420,117.167,420,-0.000615493,420,99.8789,420,99.8703,420,68.3861,420,66.3525,420,2.34214,420,2.35991,
390,117.725,390,0.00266484,390,99.9211,390,99.8446,390,49.6324,390,50.5115,390,19.7302,390,19.5353,
360,118.41,360,-0.000487089,360,99.8698,360,99.8213,360,1.48375,360,1.46623,360,1.22082,360,1.22914,
330,120.836,330,0.00394275,330,100.049,330,100.018,330,0.254844,330,0.232344,330,-0.000729662,330,-0.00166081,
300,122.233,300,0.0033975,300,100.027,300,100.038,300,-0.000845974,300,-0.000947459,300,-0.00158403,300,-0.00042926,
270,124.355,270,0.00321732,270,99.9393,270,99.9993,270,-0.000308897,270,0.00409065,270,-0.00171279,270,-0.00151556,
240,125.462,240,0.00329212,240,100.004,240,99.9949,240,-0.00136439,240,-0.000948388,240,0.00164686,240,0.00383431,
210,125.349,210,0.00600577,210,100.001,210,99.951,210,-0.0030566,210,-0.00329298,210,0.000223832,210,-0.00588912,
200,125.188,200,0.00549173,200,100.052,200,100.022,200,-0.00428844,200,-0.0032535,200,0.000446183,200,-0.00545874,

Baseline 100%T,
Baseline 100%T
Collection Time: 06.10.2022 12:03:25
Operator Name  :
Scan Software Version: 4.20(470)
Parameter List :
Instrument                        Cary 500
Instrument Version                8.01
Start (nm)                        3000.000
Stop (nm)                         200.000
X Mode                            Nanometers
Y Mode                            %T
UV-Vis Scan Rate (nm/min)         600.000
UV-Vis Data Interval (nm)         2.000
UV-Vis Ave. Time (sec)            0.100
UV-Vis SBW (nm)                   2.000
Slit Height                       Full
Beam Mode                         Double
Signal-to-noise Mode              Off
UV Source                         On
Vis Source                        On
Third Source                      Off
Source Changeover (nm)            350.00
Detector Changeover (nm)          900.00
Grating Changeover (nm)           900.00
Baseline Correction               On
Baseline Type                     Zero/baseline correction
Baseline File Name                C:\Users\test
Baseline Std Ref File Name
Cycle Mode                        Off
Comments
Method Log     :
Method Name    : C:\Users\test
Date/Time stamp: 04.04.2022 12:56:40
Method Modifications:
X Start nm Changed: 04.04.2022 11:46:49, Old: 800.00, New: 900.00
Detector changeover Changed: 04.04.2022 11:46:49, Old:   800.00, New:   900.00
Grating changeover Changed: 04.04.2022 11:46:49, Old:   800.00, New:   900.00
X Start nm Changed: 04.04.2022 11:47:07, Old:900.000, New:3000.000
Y mode Changed: 04.04.2022 11:47:07, Old:Abs, New:%T
Baseline Correction Changed: 04.04.2022 11:48:27, Old:0, New:2
Common Interval nm Changed: 04.04.2022 11:49:14, Old:    1.000, New:    5.000
X Start nm Changed: 04.04.2022 11:50:47, Old:3000.000, New:900.000
X Start nm Changed: 04.04.2022 11:53:29, Old:900.000, New:3000.000
Common Interval nm Changed: 04.04.2022 11:53:29, Old:    5.000, New:    2.000
X Start nm Changed: 04.04.2022 12:37:45, Old:3000.000, New:900.000
Common Interval nm Changed: 04.04.2022 12:37:45, Old:    2.000, New:   10.000
All Traces Changed: 04.04.2022 12:52:13, Old:0, New:1
X Start nm Changed: 04.04.2022 12:56:19, Old:900.000, New:3000.000
Common Interval nm Changed: 04.04.2022 12:56:19, Old:   10.000, New:    2.000
Saved as C:\Users\test
Opened C:\Users\test
End Method Modifications
<SBW (nm)> , 2.00
<Energy> , 3.00
<Slit height> , Full
<Current Wavelength> , 900.000
<SBW (nm)> , 2.00
<Energy> , 18.20
<Slit height> , Full
<Current Wavelength> , 200.000

Baseline 0%T,
Baseline 0%T
Collection Time: 06.10.2022 12:08:54
Operator Name  :
Scan Software Version: 4.20(470)
Parameter List :
Instrument                        Cary 500
Instrument Version                8.01
Start (nm)                        3000.000
Stop (nm)                         200.000
X Mode                            Nanometers
Y Mode                            %T
UV-Vis Scan Rate (nm/min)         600.000
UV-Vis Data Interval (nm)         2.000
UV-Vis Ave. Time (sec)            0.100
UV-Vis SBW (nm)                   2.000
Slit Height                       Full
Beam Mode                         Double
Signal-to-noise Mode              Off
UV Source                         On
Vis Source                        On
Third Source                      Off
Source Changeover (nm)            350.00
Detector Changeover (nm)          900.00
Grating Changeover (nm)           900.00
Baseline Correction               On
Baseline Type                     Zero/baseline correction
Baseline File Name                C:\Users\test
Baseline Std Ref File Name
Cycle Mode                        Off
Comments
Method Log     :
Method Name    : C:\Users\test
Date/Time stamp: 04.04.2022 12:56:40
Method Modifications:
X Start nm Changed: 04.04.2022 11:46:49, Old: 800.00, New: 900.00
Detector changeover Changed: 04.04.2022 11:46:49, Old:   800.00, New:   900.00
Grating changeover Changed: 04.04.2022 11:46:49, Old:   800.00, New:   900.00
X Start nm Changed: 04.04.2022 11:47:07, Old:900.000, New:3000.000
Y mode Changed: 04.04.2022 11:47:07, Old:Abs, New:%T
Baseline Correction Changed: 04.04.2022 11:48:27, Old:0, New:2
Common Interval nm Changed: 04.04.2022 11:49:14, Old:    1.000, New:    5.000
X Start nm Changed: 04.04.2022 11:50:47, Old:3000.000, New:900.000
X Start nm Changed: 04.04.2022 11:53:29, Old:900.000, New:3000.000
Common Interval nm Changed: 04.04.2022 11:53:29, Old:    5.000, New:    2.000
X Start nm Changed: 04.04.2022 12:37:45, Old:3000.000, New:900.000
Common Interval nm Changed: 04.04.2022 12:37:45, Old:    2.000, New:   10.000
All Traces Changed: 04.04.2022 12:52:13, Old:0, New:1
X Start nm Changed: 04.04.2022 12:56:19, Old:900.000, New:3000.000
Common Interval nm Changed: 04.04.2022 12:56:19, Old:   10.000, New:    2.000
Saved as C:\Users\test
Opened C:\Users\test
End Method Modifications
<SBW (nm)> , 2.00
<Energy> , 3.00
<Slit height> , Full
<Current Wavelength> , 896.000
<SBW (nm)> , 2.00
<Energy> , 20.89
<Slit height> , Full
<Current Wavelength> , 200.000

blank,
blank
Collection Time: 06.10.2022 12:14:10
Operator Name  :
Scan Software Version: 4.20(470)
Parameter List :
Instrument                        Cary 500
Instrument Version                8.01
Start (nm)                        3000.000
Stop (nm)                         200.000
X Mode                            Nanometers
Y Mode                            %T
UV-Vis Scan Rate (nm/min)         600.000
UV-Vis Data Interval (nm)         2.000
UV-Vis Ave. Time (sec)            0.100
UV-Vis SBW (nm)                   2.000
Slit Height                       Full
Beam Mode                         Double
Signal-to-noise Mode              Off
UV Source                         On
Vis Source                        On
Third Source                      Off
Source Changeover (nm)            350.00
Detector Changeover (nm)          900.00
Grating Changeover (nm)           900.00
Baseline Correction               On
Baseline Type                     Zero/baseline correction
Baseline File Name
Baseline Std Ref File Name
Cycle Mode                        Off
Comments
Method Log     :
Method Name    : C:\Users\test
Date/Time stamp: 04.04.2022 12:56:40
Method Modifications:
X Start nm Changed: 04.04.2022 11:46:49, Old: 800.00, New: 900.00
Detector changeover Changed: 04.04.2022 11:46:49, Old:   800.00, New:   900.00
Grating changeover Changed: 04.04.2022 11:46:49, Old:   800.00, New:   900.00
X Start nm Changed: 04.04.2022 11:47:07, Old:900.000, New:3000.000
Y mode Changed: 04.04.2022 11:47:07, Old:Abs, New:%T
Baseline Correction Changed: 04.04.2022 11:48:27, Old:0, New:2
Common Interval nm Changed: 04.04.2022 11:49:14, Old:    1.000, New:    5.000
X Start nm Changed: 04.04.2022 11:50:47, Old:3000.000, New:900.000
X Start nm Changed: 04.04.2022 11:53:29, Old:900.000, New:3000.000
Common Interval nm Changed: 04.04.2022 11:53:29, Old:    5.000, New:    2.000
X Start nm Changed: 04.04.2022 12:37:45, Old:3000.000, New:900.000
[...]
Grating changeover Changed: 04.04.2022 11:46:49, Old:   800.00, New:   900.00
X Start nm Changed: 04.04.2022 11:47:07, Old:900.000, New:3000.000
Y mode Changed: 04.04.2022 11:47:07, Old:Abs, New:%T
Baseline Correction Changed: 04.04.2022 11:48:27, Old:0, New:2
Common Interval nm Changed: 04.04.2022 11:49:14, Old:    1.000, New:    5.000
X Start nm Changed: 04.04.2022 11:50:47, Old:3000.000, New:900.000
X Start nm Changed: 04.04.2022 11:53:29, Old:900.000, New:3000.000
Common Interval nm Changed: 04.04.2022 11:53:29, Old:    5.000, New:    2.000
X Start nm Changed: 04.04.2022 12:37:45, Old:3000.000, New:900.000
Common Interval nm Changed: 04.04.2022 12:37:45, Old:    2.000, New:   10.000
All Traces Changed: 04.04.2022 12:52:13, Old:0, New:1
X Start nm Changed: 04.04.2022 12:56:19, Old:900.000, New:3000.000
Common Interval nm Changed: 04.04.2022 12:56:19, Old:   10.000, New:    2.000
Saved as C:\Users\test
Opened C:\Users\test
End Method Modifications
<SBW (nm)> , 2.00
<Energy> , 3.00
<Slit height> , Full
<Current Wavelength> , 896.000
<SBW (nm)> , 2.00
<Energy> , 20.89
<Slit height> , Full
<Current Wavelength> , 200.000

p5-fresh-glass,
p5-fresh-glass
Collection Time: 06.10.2022 12:32:17
Operator Name  :
Scan Software Version: 4.20(470)
Parameter List :
Instrument                        Cary 500
Instrument Version                8.01
Start (nm)                        3000.000
Stop (nm)                         200.000
X Mode                            Nanometers
Y Mode                            %T
UV-Vis Scan Rate (nm/min)         600.000
UV-Vis Data Interval (nm)         2.000
UV-Vis Ave. Time (sec)            0.100
UV-Vis SBW (nm)                   2.000
Slit Height                       Full
Beam Mode                         Double
Signal-to-noise Mode              Off
UV Source                         On
Vis Source                        On
Third Source                      Off
Source Changeover (nm)            350.00
Detector Changeover (nm)          900.00
Grating Changeover (nm)           900.00
Baseline Correction               On
Baseline Type                     Zero/baseline correction
Baseline File Name
Baseline Std Ref File Name
Cycle Mode                        Off
Comments
Method Log     :
Method Name    : C:\Users\test
Date/Time stamp: 04.04.2022 12:56:40
Method Modifications:
X Start nm Changed: 04.04.2022 11:46:49, Old: 800.00, New: 900.00
Detector changeover Changed: 04.04.2022 11:46:49, Old:   800.00, New:   900.00
Grating changeover Changed: 04.04.2022 11:46:49, Old:   800.00, New:   900.00
X Start nm Changed: 04.04.2022 11:47:07, Old:900.000, New:3000.000
Y mode Changed: 04.04.2022 11:47:07, Old:Abs, New:%T
Baseline Correction Changed: 04.04.2022 11:48:27, Old:0, New:2
Common Interval nm Changed: 04.04.2022 11:49:14, Old:    1.000, New:    5.000
X Start nm Changed: 04.04.2022 11:50:47, Old:3000.000, New:900.000
X Start nm Changed: 04.04.2022 11:53:29, Old:900.000, New:3000.000
Common Interval nm Changed: 04.04.2022 11:53:29, Old:    5.000, New:    2.000
X Start nm Changed: 04.04.2022 12:37:45, Old:3000.000, New:900.000
Common Interval nm Changed: 04.04.2022 12:37:45, Old:    2.000, New:   10.000
All Traces Changed: 04.04.2022 12:52:13, Old:0, New:1
X Start nm Changed: 04.04.2022 12:56:19, Old:900.000, New:3000.000
Common Interval nm Changed: 04.04.2022 12:56:19, Old:   10.000, New:    2.000
Saved as C:\Users\test
Opened C:\Users\test
End Method Modifications
<SBW (nm)> , 2.00
<Energy> , 3.00
<Slit height> , Full
<Current Wavelength> , 896.000
<SBW (nm)> , 2.00
<Energy> , 20.89
<Slit height> , Full
<Current Wavelength> , 200.000

ir hot mirror face1,
ir hot mirror face1
Collection Time: 06.10.2022 12:37:18
Operator Name  :
Scan Software Version: 4.20(470)
Parameter List :
Instrument                        Cary 500
Instrument Version                8.01
Start (nm)                        3000.000
Stop (nm)                         200.000
X Mode                            Nanometers
Y Mode                            %T
UV-Vis Scan Rate (nm/min)         600.000
UV-Vis Data Interval (nm)         2.000
UV-Vis Ave. Time (sec)            0.100
UV-Vis SBW (nm)                   2.000
Slit Height                       Full
Beam Mode                         Double
Signal-to-noise Mode              Off
UV Source                         On
Vis Source                        On
Third Source                      Off
Source Changeover (nm)            350.00
Detector Changeover (nm)          900.00
Grating Changeover (nm)           900.00
Baseline Correction               On
Baseline Type                     Zero/baseline correction
Baseline File Name
Baseline Std Ref File Name
Cycle Mode                        Off
Comments
Method Log     :
Method Name    : C:\Users\test
Date/Time stamp: 04.04.2022 12:56:40
Method Modifications:
X Start nm Changed: 04.04.2022 11:46:49, Old: 800.00, New: 900.00
Detector changeover Changed: 04.04.2022 11:46:49, Old:   800.00, New:   900.00
Grating changeover Changed: 04.04.2022 11:46:49, Old:   800.00, New:   900.00
X Start nm Changed: 04.04.2022 11:47:07, Old:900.000, New:3000.000
Y mode Changed: 04.04.2022 11:47:07, Old:Abs, New:%T
Baseline Correction Changed: 04.04.2022 11:48:27, Old:0, New:2
Common Interval nm Changed: 04.04.2022 11:49:14, Old:    1.000, New:    5.000
X Start nm Changed: 04.04.2022 11:50:47, Old:3000.000, New:900.000
X Start nm Changed: 04.04.2022 11:53:29, Old:900.000, New:3000.000
Common Interval nm Changed: 04.04.2022 11:53:29, Old:    5.000, New:    2.000
X Start nm Changed: 04.04.2022 12:37:45, Old:3000.000, New:900.000
Common Interval nm Changed: 04.04.2022 12:37:45, Old:    2.000, New:   10.000
All Traces Changed: 04.04.2022 12:52:13, Old:0, New:1
X Start nm Changed: 04.04.2022 12:56:19, Old:900.000, New:3000.000
Common Interval nm Changed: 04.04.2022 12:56:19, Old:   10.000, New:    2.000
Saved as C:\Users\test
Opened C:\Users\test
End Method Modifications
<SBW (nm)> , 2.00
<Energy> , 3.00
<Slit height> , Full
<Current Wavelength> , 896.000
<SBW (nm)> , 2.00
<Energy> , 20.89
<Slit height> , Full
<Current Wavelength> , 200.000

ir hot mirror face2,
ir hot mirror face2
Collection Time: 06.10.2022 12:42:10
Operator Name  :
Scan Software Version: 4.20(470)
Parameter List :
Instrument                        Cary 500
Instrument Version                8.01
Start (nm)                        3000.000
Stop (nm)                         200.000
X Mode                            Nanometers
Y Mode                            %T
UV-Vis Scan Rate (nm/min)         600.000
UV-Vis Data Interval (nm)         2.000
UV-Vis Ave. Time (sec)            0.100
UV-Vis SBW (nm)                   2.000
Slit Height                       Full
Beam Mode                         Double
Signal-to-noise Mode              Off
UV Source                         On
Vis Source                        On
Third Source                      Off
Source Changeover (nm)            350.00
Detector Changeover (nm)          900.00
Grating Changeover (nm)           900.00
Baseline Correction               On
Baseline Type                     Zero/baseline correction
Baseline File Name
Baseline Std Ref File Name
Cycle Mode                        Off
Comments
Method Log     :
Method Name    : C:\Users\test
Date/Time stamp: 04.04.2022 12:56:40
Method Modifications:
X Start nm Changed: 04.04.2022 11:46:49, Old: 800.00, New: 900.00
Detector changeover Changed: 04.04.2022 11:46:49, Old:   800.00, New:   900.00
Grating changeover Changed: 04.04.2022 11:46:49, Old:   800.00, New:   900.00
X Start nm Changed: 04.04.2022 11:47:07, Old:900.000, New:3000.000
Y mode Changed: 04.04.2022 11:47:07, Old:Abs, New:%T
Baseline Correction Changed: 04.04.2022 11:48:27, Old:0, New:2
Common Interval nm Changed: 04.04.2022 11:49:14, Old:    1.000, New:    5.000
X Start nm Changed: 04.04.2022 11:50:47, Old:3000.000, New:900.000
X Start nm Changed: 04.04.2022 11:53:29, Old:900.000, New:3000.000
Common Interval nm Changed: 04.04.2022 11:53:29, Old:    5.000, New:    2.000
X Start nm Changed: 04.04.2022 12:37:45, Old:3000.000, New:900.000
Common Interval nm Changed: 04.04.2022 12:37:45, Old:    2.000, New:   10.000
All Traces Changed: 04.04.2022 12:52:13, Old:0, New:1
X Start nm Changed: 04.04.2022 12:56:19, Old:900.000, New:3000.000
Common Interval nm Changed: 04.04.2022 12:56:19, Old:   10.000, New:    2.000
Saved as C:\Users\test
Opened C:\Users\test
End Method Modifications
<SBW (nm)> , 2.00
<Energy> , 3.00
<Slit height> , Full
<Current Wavelength> , 900.000
<SBW (nm)> , 2.00
<Energy> , 20.89
<Slit height> , Full
<Current Wavelength> , 200.000